onset	duration	sample	value	event_code	user_answer	correct_answer
0	n/a	0	break cnt	break cnt	n/a	n/a
47.146	n/a	23573	symbolSearch_start	92	n/a	n/a
50.07	n/a	25035	newPage	20	n/a	n/a
52.938	n/a	26469	trialResponse	14	0	0
55.016	n/a	27508	trialResponse	14	1	1
57.76	n/a	28880	trialResponse	14	0	0
60.176	n/a	30088	trialResponse	14	0	0
63.538	n/a	31769	trialResponse	14	0	0
64.96	n/a	32480	trialResponse	14	1	1
67.338	n/a	33669	trialResponse	14	0	0
68.84	n/a	34420	trialResponse	14	1	1
71.826	n/a	35913	trialResponse	14	0	0
74.162	n/a	37081	trialResponse	14	0	0
76.034	n/a	38017	trialResponse	14	0	0
77.458	n/a	38729	trialResponse	14	1	1
79.25	n/a	39625	trialResponse	14	0	0
80.768	n/a	40384	trialResponse	14	1	1
82.384	n/a	41192	trialResponse	14	1	1
83.026	n/a	41513	newPage	20	n/a	n/a
86.026	n/a	43013	trialResponse	14	1	1
89.28	n/a	44640	trialResponse	14	1	1
91.858	n/a	45929	trialResponse	14	0	0
93.266	n/a	46633	trialResponse	14	1	1
95.866	n/a	47933	trialResponse	14	0	0
97.978	n/a	48989	trialResponse	14	1	1
101.296	n/a	50648	trialResponse	14	0	0
103.68	n/a	51840	trialResponse	14	1	1
104.73	n/a	52365	trialResponse	14	1	1
107.616	n/a	53808	trialResponse	14	0	0
109.082	n/a	54541	trialResponse	14	1	1
111.912	n/a	55956	trialResponse	14	0	0
113.714	n/a	56857	trialResponse	14	1	1
115.114	n/a	57557	trialResponse	14	1	1
117.61	n/a	58805	trialResponse	14	0	0
118.226	n/a	59113	newPage	20	n/a	n/a
121.6	n/a	60800	trialResponse	14	0	0
122.986	n/a	61493	trialResponse	14	1	1
124.49	n/a	62245	trialResponse	14	1	1
126.722	n/a	63361	trialResponse	14	0	0
129.848	n/a	64924	trialResponse	14	1	1
133.392	n/a	66696	trialResponse	14	0	0
134.944	n/a	67472	trialResponse	14	1	1
137.962	n/a	68981	trialResponse	14	0	0
139.472	n/a	69736	trialResponse	14	1	1
141.762	n/a	70881	trialResponse	14	0	0
144.488	n/a	72244	trialResponse	14	0	0
146.744	n/a	73372	trialResponse	14	1	1
149.218	n/a	74609	trialResponse	14	0	0
150.688	n/a	75344	trialResponse	14	1	1
153.578	n/a	76789	trialResponse	14	0	0
153.938	n/a	76969	newPage	20	n/a	n/a
155.69	n/a	77845	trialResponse	14	1	1
157.928	n/a	78964	trialResponse	14	0	0
160.13	n/a	80065	trialResponse	14	1	1
163.264	n/a	81632	trialResponse	14	0	0
165.834	n/a	82917	trialResponse	14	0	0
168.432	n/a	84216	trialResponse	14	1	1
170.032	n/a	85016	trialResponse	14	1	1
171.29	n/a	85645	trialResponse	14	1	0
171.294	n/a	85647	newPage	20	n/a	n/a
174.337	n/a	87168.5	boundary	boundary	n/a	n/a
