onset	duration	sample	value	event_code	user_answer	correct_answer	target_count
0	n/a	0	break cnt	break cnt	n/a	n/a	8
29.818	n/a	14909	seqLearning_start	91	n/a	n/a	8
36.118	n/a	18059	learningBlock_1	31	n/a	n/a	8
36.15	n/a	18075	dot_no1_ON	11	n/a	n/a	8
36.74	n/a	18370	dot_no1_OFF	21	n/a	n/a	8
38.058	n/a	19029	dot_no6_ON	16	n/a	n/a	8
38.638	n/a	19319	dot_no6_OFF	26	n/a	n/a	8
39.958	n/a	19979	dot_no4_ON	14	n/a	n/a	8
40.548	n/a	20274	dot_no4_OFF	24	n/a	n/a	8
41.868	n/a	20934	dot_no2_ON	12	n/a	n/a	8
42.458	n/a	21229	dot_no2_OFF	22	n/a	n/a	8
43.778	n/a	21889	dot_no7_ON	17	n/a	n/a	8
44.358	n/a	22179	dot_no7_OFF	27	n/a	n/a	8
45.678	n/a	22839	dot_no3_ON	13	n/a	n/a	8
46.258	n/a	23129	dot_no3_OFF	23	n/a	n/a	8
47.578	n/a	23789	dot_no8_ON	18	n/a	n/a	8
48.158	n/a	24079	dot_no8_OFF	28	n/a	n/a	8
49.48	n/a	24740	dot_no5_ON	15	n/a	n/a	8
50.068	n/a	25034	dot_no5_OFF	25	n/a	n/a	8
51.388	n/a	25694	dot_no2_ON	12	n/a	n/a	8
51.968	n/a	25984	dot_no2_OFF	22	n/a	n/a	8
53.29	n/a	26645	dot_no7_ON	17	n/a	n/a	8
53.878	n/a	26939	dot_no7_OFF	27	1-6-8-8-7-8-5-2-4-3	1-6-4-2-7-3-8-5-2-7	8
108.212	n/a	54106	learningBlock_2	32	n/a	n/a	8
108.22	n/a	54110	dot_no1_ON	11	n/a	n/a	8
108.81	n/a	54405	dot_no1_OFF	21	n/a	n/a	8
110.13	n/a	55065	dot_no6_ON	16	n/a	n/a	8
110.71	n/a	55355	dot_no6_OFF	26	n/a	n/a	8
112.032	n/a	56016	dot_no4_ON	14	n/a	n/a	8
112.62	n/a	56310	dot_no4_OFF	24	n/a	n/a	8
113.942	n/a	56971	dot_no2_ON	12	n/a	n/a	8
114.53	n/a	57265	dot_no2_OFF	22	n/a	n/a	8
115.85	n/a	57925	dot_no7_ON	17	n/a	n/a	8
116.43	n/a	58215	dot_no7_OFF	27	n/a	n/a	8
117.752	n/a	58876	dot_no3_ON	13	n/a	n/a	8
118.33	n/a	59165	dot_no3_OFF	23	n/a	n/a	8
119.652	n/a	59826	dot_no8_ON	18	n/a	n/a	8
120.24	n/a	60120	dot_no8_OFF	28	n/a	n/a	8
121.56	n/a	60780	dot_no5_ON	15	n/a	n/a	8
122.14	n/a	61070	dot_no5_OFF	25	n/a	n/a	8
123.462	n/a	61731	dot_no2_ON	12	n/a	n/a	8
124.04	n/a	62020	dot_no2_OFF	22	n/a	n/a	8
125.362	n/a	62681	dot_no7_ON	17	n/a	n/a	8
125.952	n/a	62976	dot_no7_OFF	27	1-6-4-2-8-5-7-5-1-7	1-6-4-2-7-3-8-5-2-7	8
168.504	n/a	84252	learningBlock_3	33	n/a	n/a	8
168.514	n/a	84257	dot_no1_ON	11	n/a	n/a	8
169.102	n/a	84551	dot_no1_OFF	21	n/a	n/a	8
170.424	n/a	85212	dot_no6_ON	16	n/a	n/a	8
171.012	n/a	85506	dot_no6_OFF	26	n/a	n/a	8
172.332	n/a	86166	dot_no4_ON	14	n/a	n/a	8
172.912	n/a	86456	dot_no4_OFF	24	n/a	n/a	8
174.232	n/a	87116	dot_no2_ON	12	n/a	n/a	8
174.812	n/a	87406	dot_no2_OFF	22	n/a	n/a	8
176.134	n/a	88067	dot_no7_ON	17	n/a	n/a	8
176.722	n/a	88361	dot_no7_OFF	27	n/a	n/a	8
178.044	n/a	89022	dot_no3_ON	13	n/a	n/a	8
178.632	n/a	89316	dot_no3_OFF	23	n/a	n/a	8
179.954	n/a	89977	dot_no8_ON	18	n/a	n/a	8
180.542	n/a	90271	dot_no8_OFF	28	n/a	n/a	8
181.864	n/a	90932	dot_no5_ON	15	n/a	n/a	8
182.452	n/a	91226	dot_no5_OFF	25	n/a	n/a	8
183.774	n/a	91887	dot_no2_ON	12	n/a	n/a	8
184.362	n/a	92181	dot_no2_OFF	22	n/a	n/a	8
185.684	n/a	92842	dot_no7_ON	17	n/a	n/a	8
186.264	n/a	93132	dot_no7_OFF	27	1-6-5-2-7-3-2-7-4-8	1-6-4-2-7-3-8-5-2-7	8
209.704	n/a	104852	learningBlock_4	34	n/a	n/a	8
209.714	n/a	104857	dot_no1_ON	11	n/a	n/a	8
210.304	n/a	105152	dot_no1_OFF	21	n/a	n/a	8
211.624	n/a	105812	dot_no6_ON	16	n/a	n/a	8
212.214	n/a	106107	dot_no6_OFF	26	n/a	n/a	8
213.534	n/a	106767	dot_no4_ON	14	n/a	n/a	8
214.124	n/a	107062	dot_no4_OFF	24	n/a	n/a	8
215.444	n/a	107722	dot_no2_ON	12	n/a	n/a	8
216.034	n/a	108017	dot_no2_OFF	22	n/a	n/a	8
217.354	n/a	108677	dot_no7_ON	17	n/a	n/a	8
217.934	n/a	108967	dot_no7_OFF	27	n/a	n/a	8
219.254	n/a	109627	dot_no3_ON	13	n/a	n/a	8
219.834	n/a	109917	dot_no3_OFF	23	n/a	n/a	8
221.154	n/a	110577	dot_no8_ON	18	n/a	n/a	8
221.744	n/a	110872	dot_no8_OFF	28	n/a	n/a	8
223.064	n/a	111532	dot_no5_ON	15	n/a	n/a	8
223.644	n/a	111822	dot_no5_OFF	25	n/a	n/a	8
224.964	n/a	112482	dot_no2_ON	12	n/a	n/a	8
225.544	n/a	112772	dot_no2_OFF	22	n/a	n/a	8
226.864	n/a	113432	dot_no7_ON	17	n/a	n/a	8
227.454	n/a	113727	dot_no7_OFF	27	1-6-5-2-3-7-8-4-2-7	1-6-4-2-7-3-8-5-2-7	8
250.608	n/a	125304	learningBlock_5	35	n/a	n/a	8
250.616	n/a	125308	dot_no1_ON	11	n/a	n/a	8
251.206	n/a	125603	dot_no1_OFF	21	n/a	n/a	8
252.526	n/a	126263	dot_no6_ON	16	n/a	n/a	8
253.106	n/a	126553	dot_no6_OFF	26	n/a	n/a	8
254.426	n/a	127213	dot_no4_ON	14	n/a	n/a	8
255.006	n/a	127503	dot_no4_OFF	24	n/a	n/a	8
256.326	n/a	128163	dot_no2_ON	12	n/a	n/a	8
256.906	n/a	128453	dot_no2_OFF	22	n/a	n/a	8
258.226	n/a	129113	dot_no7_ON	17	n/a	n/a	8
258.806	n/a	129403	dot_no7_OFF	27	n/a	n/a	8
260.126	n/a	130063	dot_no3_ON	13	n/a	n/a	8
260.716	n/a	130358	dot_no3_OFF	23	n/a	n/a	8
262.036	n/a	131018	dot_no8_ON	18	n/a	n/a	8
262.616	n/a	131308	dot_no8_OFF	28	n/a	n/a	8
263.936	n/a	131968	dot_no5_ON	15	n/a	n/a	8
264.516	n/a	132258	dot_no5_OFF	25	n/a	n/a	8
265.836	n/a	132918	dot_no2_ON	12	n/a	n/a	8
266.426	n/a	133213	dot_no2_OFF	22	n/a	n/a	8
267.746	n/a	133873	dot_no7_ON	17	n/a	n/a	8
268.326	n/a	134163	dot_no7_OFF	27	8-6-4-2-7-5-2-8-1-7	1-6-4-2-7-3-8-5-2-7	8
291.968	n/a	145984	seqLearning_stop	50	n/a	n/a	8
293.029	n/a	146514.5	boundary	boundary	n/a	n/a	8
