onset	duration	sample	value	event_code	user_answer	correct_answer
0	n/a	0	break cnt	break cnt	n/a	n/a
34.048	n/a	17024	symbolSearch_start	92	n/a	n/a
36.978	n/a	18489	newPage	20	n/a	n/a
41.18	n/a	20590	trialResponse	14	0	0
44.434	n/a	22217	trialResponse	14	1	1
49.352	n/a	24676	trialResponse	14	0	0
55.902	n/a	27951	trialResponse	14	0	0
61.75	n/a	30875	trialResponse	14	0	0
65.464	n/a	32732	trialResponse	14	0	1
72.216	n/a	36108	trialResponse	14	0	0
77.086	n/a	38543	trialResponse	14	1	1
89.344	n/a	44672	trialResponse	14	0	0
93.32	n/a	46660	trialResponse	14	0	0
98.552	n/a	49276	trialResponse	14	0	0
101.264	n/a	50632	trialResponse	14	1	1
104	n/a	52000	trialResponse	14	0	0
108.416	n/a	54208	trialResponse	14	1	1
109.784	n/a	54892	trialResponse	14	1	1
110.602	n/a	55301	newPage	20	n/a	n/a
115.422	n/a	57711	trialResponse	14	1	1
120.24	n/a	60120	trialResponse	14	1	1
126.264	n/a	63132	trialResponse	14	0	0
131.142	n/a	65571	trialResponse	14	1	1
140.342	n/a	70171	trialResponse	14	0	0
150.526	n/a	75263	trialResponse	14	1	1
155.542	n/a	77771	trialResponse	14	0	0
160.064	n/a	80032	trialResponse	14	1	1
160.068	n/a	80034	newPage	20	n/a	n/a
170.477	n/a	85238.5	boundary	boundary	n/a	n/a
