onset	duration	sample	value	event_code	user_answer	correct_answer
0	n/a	0	break cnt	break cnt	n/a	n/a
27.282	n/a	13641	symbolSearch_start	92	n/a	n/a
30.176	n/a	15088	newPage	20	n/a	n/a
37.398	n/a	18699	trialResponse	14	0	0
43.29	n/a	21645	trialResponse	14	1	1
50.154	n/a	25077	trialResponse	14	0	0
58.056	n/a	29028	trialResponse	14	0	0
73.48	n/a	36740	trialResponse	14	0	0
78.21	n/a	39105	trialResponse	14	0	1
87.64	n/a	43820	trialResponse	14	0	0
90.482	n/a	45241	trialResponse	14	1	1
96.488	n/a	48244	trialResponse	14	0	0
100.618	n/a	50309	trialResponse	14	0	0
111.608	n/a	55804	trialResponse	14	0	0
117.09	n/a	58545	trialResponse	14	1	1
122.2	n/a	61100	trialResponse	14	0	0
127.378	n/a	63689	trialResponse	14	1	1
130.792	n/a	65396	trialResponse	14	1	1
132.732	n/a	66366	newPage	20	n/a	n/a
136.65	n/a	68325	trialResponse	14	1	1
141.562	n/a	70781	trialResponse	14	1	1
150.498	n/a	75249	trialResponse	14	0	0
150.512	n/a	75256	newPage	20	n/a	n/a
160.986	n/a	80493	break cnt	break cnt	n/a	n/a
193.25	n/a	96625	9999	9999	n/a	n/a
