onset	duration	sample	value	event_code	user_answer	correct_answer
0	n/a	0	break cnt	break cnt	n/a	n/a
30.38	n/a	15190	symbolSearch_start	92	n/a	n/a
33.302	n/a	16651	newPage	20	n/a	n/a
37.644	n/a	18822	trialResponse	14	0	0
40.572	n/a	20286	trialResponse	14	1	1
44.02	n/a	22010	trialResponse	14	0	0
48.668	n/a	24334	trialResponse	14	0	0
53.572	n/a	26786	trialResponse	14	0	0
55.782	n/a	27891	trialResponse	14	1	1
59.542	n/a	29771	trialResponse	14	0	0
62.66	n/a	31330	trialResponse	14	1	1
67.172	n/a	33586	trialResponse	14	0	0
71.372	n/a	35686	trialResponse	14	0	0
77.332	n/a	38666	trialResponse	14	0	0
79.332	n/a	39666	trialResponse	14	1	1
83.508	n/a	41754	trialResponse	14	0	0
87.092	n/a	43546	trialResponse	14	1	1
90.02	n/a	45010	trialResponse	14	1	1
90.996	n/a	45498	newPage	20	n/a	n/a
94.796	n/a	47398	trialResponse	14	1	1
97.02	n/a	48510	trialResponse	14	1	1
100.516	n/a	50258	trialResponse	14	0	0
102.652	n/a	51326	trialResponse	14	1	1
111.108	n/a	55554	trialResponse	14	0	0
115.02	n/a	57510	trialResponse	14	1	1
119.732	n/a	59866	trialResponse	14	0	0
123.204	n/a	61602	trialResponse	14	1	1
129.308	n/a	64654	trialResponse	14	1	1
135.628	n/a	67814	trialResponse	14	0	0
139.716	n/a	69858	trialResponse	14	1	1
144.342	n/a	72171	trialResponse	14	0	0
148.668	n/a	74334	trialResponse	14	0	1
152.588	n/a	76294	trialResponse	14	1	1
156.836	n/a	78418	trialResponse	14	0	0
156.846	n/a	78423	newPage	20	n/a	n/a
159.939	n/a	79969.5	boundary	boundary	n/a	n/a
