onset	duration	sample	value	event_code	user_answer	correct_answer	target_count
0	n/a	0	break cnt	break cnt	n/a	n/a	8
34.628	n/a	17314	seqLearning_start	91	n/a	n/a	8
40.886	n/a	20443	learningBlock_1	31	n/a	n/a	8
40.918	n/a	20459	dot_no1_ON	11	n/a	n/a	8
41.508	n/a	20754	dot_no1_OFF	21	n/a	n/a	8
42.826	n/a	21413	dot_no6_ON	16	n/a	n/a	8
43.406	n/a	21703	dot_no6_OFF	26	n/a	n/a	8
44.728	n/a	22364	dot_no4_ON	14	n/a	n/a	8
45.318	n/a	22659	dot_no4_OFF	24	n/a	n/a	8
46.638	n/a	23319	dot_no2_ON	12	n/a	n/a	8
47.218	n/a	23609	dot_no2_OFF	22	n/a	n/a	8
48.538	n/a	24269	dot_no7_ON	17	n/a	n/a	8
49.118	n/a	24559	dot_no7_OFF	27	n/a	n/a	8
50.438	n/a	25219	dot_no3_ON	13	n/a	n/a	8
51.018	n/a	25509	dot_no3_OFF	23	n/a	n/a	8
52.338	n/a	26169	dot_no8_ON	18	n/a	n/a	8
52.918	n/a	26459	dot_no8_OFF	28	n/a	n/a	8
54.238	n/a	27119	dot_no5_ON	15	n/a	n/a	8
54.828	n/a	27414	dot_no5_OFF	25	n/a	n/a	8
56.148	n/a	28074	dot_no2_ON	12	n/a	n/a	8
56.738	n/a	28369	dot_no2_OFF	22	n/a	n/a	8
58.058	n/a	29029	dot_no7_ON	17	n/a	n/a	8
58.648	n/a	29324	dot_no7_OFF	27	1-6-3-2-7-8-5-7-4-7	1-6-4-2-7-3-8-5-2-7	8
91.48	n/a	45740	learningBlock_2	32	n/a	n/a	8
91.488	n/a	45744	dot_no1_ON	11	n/a	n/a	8
92.068	n/a	46034	dot_no1_OFF	21	n/a	n/a	8
93.388	n/a	46694	dot_no6_ON	16	n/a	n/a	8
93.968	n/a	46984	dot_no6_OFF	26	n/a	n/a	8
95.288	n/a	47644	dot_no4_ON	14	n/a	n/a	8
95.868	n/a	47934	dot_no4_OFF	24	n/a	n/a	8
97.19	n/a	48595	dot_no2_ON	12	n/a	n/a	8
97.768	n/a	48884	dot_no2_OFF	22	n/a	n/a	8
99.088	n/a	49544	dot_no7_ON	17	n/a	n/a	8
99.668	n/a	49834	dot_no7_OFF	27	n/a	n/a	8
100.99	n/a	50495	dot_no3_ON	13	n/a	n/a	8
101.568	n/a	50784	dot_no3_OFF	23	n/a	n/a	8
102.89	n/a	51445	dot_no8_ON	18	n/a	n/a	8
103.47	n/a	51735	dot_no8_OFF	28	n/a	n/a	8
104.79	n/a	52395	dot_no5_ON	15	n/a	n/a	8
105.37	n/a	52685	dot_no5_OFF	25	n/a	n/a	8
106.69	n/a	53345	dot_no2_ON	12	n/a	n/a	8
107.27	n/a	53635	dot_no2_OFF	22	n/a	n/a	8
108.59	n/a	54295	dot_no7_ON	17	n/a	n/a	8
109.17	n/a	54585	dot_no7_OFF	27	1-6-4-2-7-3-5-8-2-2	1-6-4-2-7-3-8-5-2-7	8
133.67	n/a	66835	learningBlock_3	33	n/a	n/a	8
133.68	n/a	66840	dot_no1_ON	11	n/a	n/a	8
134.26	n/a	67130	dot_no1_OFF	21	n/a	n/a	8
135.58	n/a	67790	dot_no6_ON	16	n/a	n/a	8
136.17	n/a	68085	dot_no6_OFF	26	n/a	n/a	8
137.492	n/a	68746	dot_no4_ON	14	n/a	n/a	8
138.07	n/a	69035	dot_no4_OFF	24	n/a	n/a	8
139.39	n/a	69695	dot_no2_ON	12	n/a	n/a	8
139.97	n/a	69985	dot_no2_OFF	22	n/a	n/a	8
141.29	n/a	70645	dot_no7_ON	17	n/a	n/a	8
141.87	n/a	70935	dot_no7_OFF	27	n/a	n/a	8
143.19	n/a	71595	dot_no3_ON	13	n/a	n/a	8
143.77	n/a	71885	dot_no3_OFF	23	n/a	n/a	8
145.09	n/a	72545	dot_no8_ON	18	n/a	n/a	8
145.67	n/a	72835	dot_no8_OFF	28	n/a	n/a	8
146.99	n/a	73495	dot_no5_ON	15	n/a	n/a	8
147.57	n/a	73785	dot_no5_OFF	25	n/a	n/a	8
148.89	n/a	74445	dot_no2_ON	12	n/a	n/a	8
149.47	n/a	74735	dot_no2_OFF	22	n/a	n/a	8
150.792	n/a	75396	dot_no7_ON	17	n/a	n/a	8
151.38	n/a	75690	dot_no7_OFF	27	1-7-4-7-3-2-6-8-5-1	1-6-4-2-7-3-8-5-2-7	8
171.902	n/a	85951	learningBlock_4	34	n/a	n/a	8
171.912	n/a	85956	dot_no1_ON	11	n/a	n/a	8
172.492	n/a	86246	dot_no1_OFF	21	n/a	n/a	8
173.812	n/a	86906	dot_no6_ON	16	n/a	n/a	8
174.392	n/a	87196	dot_no6_OFF	26	n/a	n/a	8
175.712	n/a	87856	dot_no4_ON	14	n/a	n/a	8
176.302	n/a	88151	dot_no4_OFF	24	n/a	n/a	8
177.622	n/a	88811	dot_no2_ON	12	n/a	n/a	8
178.202	n/a	89101	dot_no2_OFF	22	n/a	n/a	8
179.522	n/a	89761	dot_no7_ON	17	n/a	n/a	8
180.102	n/a	90051	dot_no7_OFF	27	n/a	n/a	8
181.422	n/a	90711	dot_no3_ON	13	n/a	n/a	8
182.012	n/a	91006	dot_no3_OFF	23	n/a	n/a	8
183.332	n/a	91666	dot_no8_ON	18	n/a	n/a	8
183.922	n/a	91961	dot_no8_OFF	28	n/a	n/a	8
185.242	n/a	92621	dot_no5_ON	15	n/a	n/a	8
185.832	n/a	92916	dot_no5_OFF	25	n/a	n/a	8
187.152	n/a	93576	dot_no2_ON	12	n/a	n/a	8
187.732	n/a	93866	dot_no2_OFF	22	n/a	n/a	8
189.052	n/a	94526	dot_no7_ON	17	n/a	n/a	8
189.632	n/a	94816	dot_no7_OFF	27	1-6-3-7-3-2-5-4-8-8	1-6-4-2-7-3-8-5-2-7	8
211.304	n/a	105652	learningBlock_5	35	n/a	n/a	8
211.314	n/a	105657	dot_no1_ON	11	n/a	n/a	8
211.892	n/a	105946	dot_no1_OFF	21	n/a	n/a	8
213.214	n/a	106607	dot_no6_ON	16	n/a	n/a	8
213.792	n/a	106896	dot_no6_OFF	26	n/a	n/a	8
215.112	n/a	107556	dot_no4_ON	14	n/a	n/a	8
215.702	n/a	107851	dot_no4_OFF	24	n/a	n/a	8
217.022	n/a	108511	dot_no2_ON	12	n/a	n/a	8
217.602	n/a	108801	dot_no2_OFF	22	n/a	n/a	8
218.924	n/a	109462	dot_no7_ON	17	n/a	n/a	8
219.504	n/a	109752	dot_no7_OFF	27	n/a	n/a	8
220.824	n/a	110412	dot_no3_ON	13	n/a	n/a	8
221.414	n/a	110707	dot_no3_OFF	23	n/a	n/a	8
222.734	n/a	111367	dot_no8_ON	18	n/a	n/a	8
223.324	n/a	111662	dot_no8_OFF	28	n/a	n/a	8
224.644	n/a	112322	dot_no5_ON	15	n/a	n/a	8
225.224	n/a	112612	dot_no5_OFF	25	n/a	n/a	8
226.544	n/a	113272	dot_no2_ON	12	n/a	n/a	8
227.124	n/a	113562	dot_no2_OFF	22	n/a	n/a	8
228.444	n/a	114222	dot_no7_ON	17	n/a	n/a	8
229.034	n/a	114517	dot_no7_OFF	27	1-6-4-2-7-8-3-5-1-1	1-6-4-2-7-3-8-5-2-7	8
249.416	n/a	124708	seqLearning_stop	50	n/a	n/a	8
250.585	n/a	125292.5	boundary	boundary	n/a	n/a	8
