onset	duration	sample	value	event_code	user_answer	correct_answer	target_count
0	n/a	0	break cnt	break cnt	n/a	n/a	8
44.796	n/a	22398	seqLearning_start	91	n/a	n/a	8
51.066	n/a	25533	learningBlock_1	31	n/a	n/a	8
51.102	n/a	25551	dot_no1_ON	11	n/a	n/a	8
51.69	n/a	25845	dot_no1_OFF	21	n/a	n/a	8
53.01	n/a	26505	dot_no6_ON	16	n/a	n/a	8
53.598	n/a	26799	dot_no6_OFF	26	n/a	n/a	8
54.92	n/a	27460	dot_no4_ON	14	n/a	n/a	8
55.498	n/a	27749	dot_no4_OFF	24	n/a	n/a	8
56.82	n/a	28410	dot_no2_ON	12	n/a	n/a	8
57.398	n/a	28699	dot_no2_OFF	22	n/a	n/a	8
58.72	n/a	29360	dot_no7_ON	17	n/a	n/a	8
59.308	n/a	29654	dot_no7_OFF	27	n/a	n/a	8
60.63	n/a	30315	dot_no3_ON	13	n/a	n/a	8
61.22	n/a	30610	dot_no3_OFF	23	n/a	n/a	8
62.54	n/a	31270	dot_no8_ON	18	n/a	n/a	8
63.12	n/a	31560	dot_no8_OFF	28	n/a	n/a	8
64.44	n/a	32220	dot_no5_ON	15	n/a	n/a	8
65.02	n/a	32510	dot_no5_OFF	25	n/a	n/a	8
66.34	n/a	33170	dot_no2_ON	12	n/a	n/a	8
66.92	n/a	33460	dot_no2_OFF	22	n/a	n/a	8
68.24	n/a	34120	dot_no7_ON	17	n/a	n/a	8
68.83	n/a	34415	dot_no7_OFF	27	1-6-4-2-7-3-8-5-2-1	1-6-4-2-7-3-8-5-2-7	8
124.072	n/a	62036	learningBlock_2	32	n/a	n/a	8
124.082	n/a	62041	dot_no1_ON	11	n/a	n/a	8
124.662	n/a	62331	dot_no1_OFF	21	n/a	n/a	8
125.982	n/a	62991	dot_no6_ON	16	n/a	n/a	8
126.572	n/a	63286	dot_no6_OFF	26	n/a	n/a	8
127.892	n/a	63946	dot_no4_ON	14	n/a	n/a	8
128.472	n/a	64236	dot_no4_OFF	24	n/a	n/a	8
129.792	n/a	64896	dot_no2_ON	12	n/a	n/a	8
130.372	n/a	65186	dot_no2_OFF	22	n/a	n/a	8
131.692	n/a	65846	dot_no7_ON	17	n/a	n/a	8
132.272	n/a	66136	dot_no7_OFF	27	n/a	n/a	8
133.592	n/a	66796	dot_no3_ON	13	n/a	n/a	8
134.172	n/a	67086	dot_no3_OFF	23	n/a	n/a	8
135.492	n/a	67746	dot_no8_ON	18	n/a	n/a	8
136.072	n/a	68036	dot_no8_OFF	28	n/a	n/a	8
137.392	n/a	68696	dot_no5_ON	15	n/a	n/a	8
137.972	n/a	68986	dot_no5_OFF	25	n/a	n/a	8
139.292	n/a	69646	dot_no2_ON	12	n/a	n/a	8
139.872	n/a	69936	dot_no2_OFF	22	n/a	n/a	8
141.192	n/a	70596	dot_no7_ON	17	n/a	n/a	8
141.772	n/a	70886	dot_no7_OFF	27	1-6-4-8-5-2-3-1-6-7	1-6-4-2-7-3-8-5-2-7	8
166.222	n/a	83111	learningBlock_3	33	n/a	n/a	8
166.232	n/a	83116	dot_no1_ON	11	n/a	n/a	8
166.812	n/a	83406	dot_no1_OFF	21	n/a	n/a	8
168.134	n/a	84067	dot_no6_ON	16	n/a	n/a	8
168.712	n/a	84356	dot_no6_OFF	26	n/a	n/a	8
170.034	n/a	85017	dot_no4_ON	14	n/a	n/a	8
170.622	n/a	85311	dot_no4_OFF	24	n/a	n/a	8
171.942	n/a	85971	dot_no2_ON	12	n/a	n/a	8
172.522	n/a	86261	dot_no2_OFF	22	n/a	n/a	8
173.844	n/a	86922	dot_no7_ON	17	n/a	n/a	8
174.422	n/a	87211	dot_no7_OFF	27	n/a	n/a	8
175.744	n/a	87872	dot_no3_ON	13	n/a	n/a	8
176.322	n/a	88161	dot_no3_OFF	23	n/a	n/a	8
177.642	n/a	88821	dot_no8_ON	18	n/a	n/a	8
178.222	n/a	89111	dot_no8_OFF	28	n/a	n/a	8
179.544	n/a	89772	dot_no5_ON	15	n/a	n/a	8
180.122	n/a	90061	dot_no5_OFF	25	n/a	n/a	8
181.444	n/a	90722	dot_no2_ON	12	n/a	n/a	8
182.032	n/a	91016	dot_no2_OFF	22	n/a	n/a	8
183.354	n/a	91677	dot_no7_ON	17	n/a	n/a	8
183.944	n/a	91972	dot_no7_OFF	27	1-6-4-2-7-3-8-5-3-7	1-6-4-2-7-3-8-5-2-7	8
206.246	n/a	103123	learningBlock_4	34	n/a	n/a	8
206.254	n/a	103127	dot_no1_ON	11	n/a	n/a	8
206.844	n/a	103422	dot_no1_OFF	21	n/a	n/a	8
208.164	n/a	104082	dot_no6_ON	16	n/a	n/a	8
208.744	n/a	104372	dot_no6_OFF	26	n/a	n/a	8
210.064	n/a	105032	dot_no4_ON	14	n/a	n/a	8
210.644	n/a	105322	dot_no4_OFF	24	n/a	n/a	8
211.964	n/a	105982	dot_no2_ON	12	n/a	n/a	8
212.544	n/a	106272	dot_no2_OFF	22	n/a	n/a	8
213.864	n/a	106932	dot_no7_ON	17	n/a	n/a	8
214.444	n/a	107222	dot_no7_OFF	27	n/a	n/a	8
215.764	n/a	107882	dot_no3_ON	13	n/a	n/a	8
216.354	n/a	108177	dot_no3_OFF	23	n/a	n/a	8
217.674	n/a	108837	dot_no8_ON	18	n/a	n/a	8
218.264	n/a	109132	dot_no8_OFF	28	n/a	n/a	8
219.586	n/a	109793	dot_no5_ON	15	n/a	n/a	8
220.164	n/a	110082	dot_no5_OFF	25	n/a	n/a	8
221.484	n/a	110742	dot_no2_ON	12	n/a	n/a	8
222.064	n/a	111032	dot_no2_OFF	22	n/a	n/a	8
223.384	n/a	111692	dot_no7_ON	17	n/a	n/a	8
223.964	n/a	111982	dot_no7_OFF	27	1-6-4-2-7-3-8-5-2-7	1-6-4-2-7-3-8-5-2-7	8
242.136	n/a	121068	learningBlock_5	35	n/a	n/a	8
242.146	n/a	121073	dot_no1_ON	11	n/a	n/a	8
242.726	n/a	121363	dot_no1_OFF	21	n/a	n/a	8
244.046	n/a	122023	dot_no6_ON	16	n/a	n/a	8
244.626	n/a	122313	dot_no6_OFF	26	n/a	n/a	8
245.946	n/a	122973	dot_no4_ON	14	n/a	n/a	8
246.526	n/a	123263	dot_no4_OFF	24	n/a	n/a	8
247.846	n/a	123923	dot_no2_ON	12	n/a	n/a	8
248.436	n/a	124218	dot_no2_OFF	22	n/a	n/a	8
249.756	n/a	124878	dot_no7_ON	17	n/a	n/a	8
250.346	n/a	125173	dot_no7_OFF	27	n/a	n/a	8
251.666	n/a	125833	dot_no3_ON	13	n/a	n/a	8
252.246	n/a	126123	dot_no3_OFF	23	n/a	n/a	8
253.566	n/a	126783	dot_no8_ON	18	n/a	n/a	8
254.146	n/a	127073	dot_no8_OFF	28	n/a	n/a	8
255.466	n/a	127733	dot_no5_ON	15	n/a	n/a	8
256.046	n/a	128023	dot_no5_OFF	25	n/a	n/a	8
257.366	n/a	128683	dot_no2_ON	12	n/a	n/a	8
257.946	n/a	128973	dot_no2_OFF	22	n/a	n/a	8
259.266	n/a	129633	dot_no7_ON	17	n/a	n/a	8
259.856	n/a	129928	dot_no7_OFF	27	1-6-4-2-7-3-8-5-2-7	1-6-4-2-7-3-8-5-2-7	8
273.818	n/a	136909	seqLearning_stop	50	n/a	n/a	8
275.029	n/a	137514.5	boundary	boundary	n/a	n/a	8
