onset	duration	sample	value	event_code	user_answer	correct_answer	target_count
0	n/a	0	break cnt	break cnt	n/a	n/a	8
39.938	n/a	19969	seqLearning_start	91	n/a	n/a	8
46.224	n/a	23112	learningBlock_1	31	n/a	n/a	8
46.256	n/a	23128	dot_no1_ON	11	n/a	n/a	8
46.844	n/a	23422	dot_no1_OFF	21	n/a	n/a	8
48.164	n/a	24082	dot_no6_ON	16	n/a	n/a	8
48.752	n/a	24376	dot_no6_OFF	26	n/a	n/a	8
50.074	n/a	25037	dot_no4_ON	14	n/a	n/a	8
50.662	n/a	25331	dot_no4_OFF	24	n/a	n/a	8
51.984	n/a	25992	dot_no2_ON	12	n/a	n/a	8
52.562	n/a	26281	dot_no2_OFF	22	n/a	n/a	8
53.884	n/a	26942	dot_no7_ON	17	n/a	n/a	8
54.462	n/a	27231	dot_no7_OFF	27	n/a	n/a	8
55.782	n/a	27891	dot_no3_ON	13	n/a	n/a	8
56.362	n/a	28181	dot_no3_OFF	23	n/a	n/a	8
57.682	n/a	28841	dot_no8_ON	18	n/a	n/a	8
58.262	n/a	29131	dot_no8_OFF	28	n/a	n/a	8
59.584	n/a	29792	dot_no5_ON	15	n/a	n/a	8
60.162	n/a	30081	dot_no5_OFF	25	n/a	n/a	8
61.484	n/a	30742	dot_no2_ON	12	n/a	n/a	8
62.064	n/a	31032	dot_no2_OFF	22	n/a	n/a	8
63.384	n/a	31692	dot_no7_ON	17	n/a	n/a	8
63.964	n/a	31982	dot_no7_OFF	27	1-6-4-2-3-7-2-8-5-4	1-6-4-2-7-3-8-5-2-7	8
107.296	n/a	53648	learningBlock_2	32	n/a	n/a	8
107.304	n/a	53652	dot_no1_ON	11	n/a	n/a	8
107.884	n/a	53942	dot_no1_OFF	21	n/a	n/a	8
109.204	n/a	54602	dot_no6_ON	16	n/a	n/a	8
109.784	n/a	54892	dot_no6_OFF	26	n/a	n/a	8
111.104	n/a	55552	dot_no4_ON	14	n/a	n/a	8
111.684	n/a	55842	dot_no4_OFF	24	n/a	n/a	8
113.004	n/a	56502	dot_no2_ON	12	n/a	n/a	8
113.584	n/a	56792	dot_no2_OFF	22	n/a	n/a	8
114.904	n/a	57452	dot_no7_ON	17	n/a	n/a	8
115.484	n/a	57742	dot_no7_OFF	27	n/a	n/a	8
116.806	n/a	58403	dot_no3_ON	13	n/a	n/a	8
117.384	n/a	58692	dot_no3_OFF	23	n/a	n/a	8
118.706	n/a	59353	dot_no8_ON	18	n/a	n/a	8
119.286	n/a	59643	dot_no8_OFF	28	n/a	n/a	8
120.606	n/a	60303	dot_no5_ON	15	n/a	n/a	8
121.186	n/a	60593	dot_no5_OFF	25	n/a	n/a	8
122.506	n/a	61253	dot_no2_ON	12	n/a	n/a	8
123.086	n/a	61543	dot_no2_OFF	22	n/a	n/a	8
124.406	n/a	62203	dot_no7_ON	17	n/a	n/a	8
124.986	n/a	62493	dot_no7_OFF	27	1-6-3-7-2-4-5-8-2-1	1-6-4-2-7-3-8-5-2-7	8
161.358	n/a	80679	learningBlock_3	33	n/a	n/a	8
161.366	n/a	80683	dot_no1_ON	11	n/a	n/a	8
161.946	n/a	80973	dot_no1_OFF	21	n/a	n/a	8
163.268	n/a	81634	dot_no6_ON	16	n/a	n/a	8
163.856	n/a	81928	dot_no6_OFF	26	n/a	n/a	8
165.176	n/a	82588	dot_no4_ON	14	n/a	n/a	8
165.766	n/a	82883	dot_no4_OFF	24	n/a	n/a	8
167.088	n/a	83544	dot_no2_ON	12	n/a	n/a	8
167.666	n/a	83833	dot_no2_OFF	22	n/a	n/a	8
168.986	n/a	84493	dot_no7_ON	17	n/a	n/a	8
169.566	n/a	84783	dot_no7_OFF	27	n/a	n/a	8
170.886	n/a	85443	dot_no3_ON	13	n/a	n/a	8
171.466	n/a	85733	dot_no3_OFF	23	n/a	n/a	8
172.786	n/a	86393	dot_no8_ON	18	n/a	n/a	8
173.366	n/a	86683	dot_no8_OFF	28	n/a	n/a	8
174.688	n/a	87344	dot_no5_ON	15	n/a	n/a	8
175.266	n/a	87633	dot_no5_OFF	25	n/a	n/a	8
176.588	n/a	88294	dot_no2_ON	12	n/a	n/a	8
177.166	n/a	88583	dot_no2_OFF	22	n/a	n/a	8
178.488	n/a	89244	dot_no7_ON	17	n/a	n/a	8
179.068	n/a	89534	dot_no7_OFF	27	1-6-4-2-7-3-8-5-2-7	1-6-4-2-7-3-8-5-2-7	8
199.148	n/a	99574	learningBlock_4	34	n/a	n/a	8
199.158	n/a	99579	dot_no1_ON	11	n/a	n/a	8
199.738	n/a	99869	dot_no1_OFF	21	n/a	n/a	8
201.058	n/a	100529	dot_no6_ON	16	n/a	n/a	8
201.638	n/a	100819	dot_no6_OFF	26	n/a	n/a	8
202.958	n/a	101479	dot_no4_ON	14	n/a	n/a	8
203.538	n/a	101769	dot_no4_OFF	24	n/a	n/a	8
204.858	n/a	102429	dot_no2_ON	12	n/a	n/a	8
205.438	n/a	102719	dot_no2_OFF	22	n/a	n/a	8
206.758	n/a	103379	dot_no7_ON	17	n/a	n/a	8
207.338	n/a	103669	dot_no7_OFF	27	n/a	n/a	8
208.658	n/a	104329	dot_no3_ON	13	n/a	n/a	8
209.238	n/a	104619	dot_no3_OFF	23	n/a	n/a	8
210.558	n/a	105279	dot_no8_ON	18	n/a	n/a	8
211.138	n/a	105569	dot_no8_OFF	28	n/a	n/a	8
212.458	n/a	106229	dot_no5_ON	15	n/a	n/a	8
213.038	n/a	106519	dot_no5_OFF	25	n/a	n/a	8
214.358	n/a	107179	dot_no2_ON	12	n/a	n/a	8
214.938	n/a	107469	dot_no2_OFF	22	n/a	n/a	8
216.258	n/a	108129	dot_no7_ON	17	n/a	n/a	8
216.848	n/a	108424	dot_no7_OFF	27	6-1-6-6-6-6-6-6-6-6	1-6-4-2-7-3-8-5-2-7	8
230.19	n/a	115095	learningBlock_5	35	n/a	n/a	8
230.198	n/a	115099	dot_no1_ON	11	n/a	n/a	8
230.788	n/a	115394	dot_no1_OFF	21	n/a	n/a	8
232.108	n/a	116054	dot_no6_ON	16	n/a	n/a	8
232.688	n/a	116344	dot_no6_OFF	26	n/a	n/a	8
234.008	n/a	117004	dot_no4_ON	14	n/a	n/a	8
234.588	n/a	117294	dot_no4_OFF	24	n/a	n/a	8
235.918	n/a	117959	dot_no2_ON	12	n/a	n/a	8
236.498	n/a	118249	dot_no2_OFF	22	n/a	n/a	8
237.82	n/a	118910	dot_no7_ON	17	n/a	n/a	8
238.398	n/a	119199	dot_no7_OFF	27	n/a	n/a	8
239.72	n/a	119860	dot_no3_ON	13	n/a	n/a	8
240.3	n/a	120150	dot_no3_OFF	23	n/a	n/a	8
241.62	n/a	120810	dot_no8_ON	18	n/a	n/a	8
242.2	n/a	121100	dot_no8_OFF	28	n/a	n/a	8
243.52	n/a	121760	dot_no5_ON	15	n/a	n/a	8
244.1	n/a	122050	dot_no5_OFF	25	n/a	n/a	8
245.42	n/a	122710	dot_no2_ON	12	n/a	n/a	8
246	n/a	123000	dot_no2_OFF	22	n/a	n/a	8
247.32	n/a	123660	dot_no7_ON	17	n/a	n/a	8
247.9	n/a	123950	dot_no7_OFF	27	1-6-4-2-7-3-8-5-2-7	1-6-4-2-7-3-8-5-2-7	8
265.102	n/a	132551	seqLearning_stop	50	n/a	n/a	8
266.187	n/a	133093.5	boundary	boundary	n/a	n/a	8
