onset	duration	sample	value	event_code	user_answer	correct_answer	target_count
0	n/a	0	break cnt	break cnt	n/a	n/a	8
32.794	n/a	16397	seqLearning_start	91	n/a	n/a	8
39.044	n/a	19522	learningBlock_1	31	n/a	n/a	8
39.06	n/a	19530	dot_no1_ON	11	n/a	n/a	8
39.648	n/a	19824	dot_no1_OFF	21	n/a	n/a	8
40.968	n/a	20484	dot_no6_ON	16	n/a	n/a	8
41.558	n/a	20779	dot_no6_OFF	26	n/a	n/a	8
42.878	n/a	21439	dot_no4_ON	14	n/a	n/a	8
43.468	n/a	21734	dot_no4_OFF	24	n/a	n/a	8
44.788	n/a	22394	dot_no2_ON	12	n/a	n/a	8
45.378	n/a	22689	dot_no2_OFF	22	n/a	n/a	8
46.698	n/a	23349	dot_no7_ON	17	n/a	n/a	8
47.288	n/a	23644	dot_no7_OFF	27	n/a	n/a	8
48.608	n/a	24304	dot_no3_ON	13	n/a	n/a	8
49.198	n/a	24599	dot_no3_OFF	23	n/a	n/a	8
50.518	n/a	25259	dot_no8_ON	18	n/a	n/a	8
51.108	n/a	25554	dot_no8_OFF	28	n/a	n/a	8
52.428	n/a	26214	dot_no5_ON	15	n/a	n/a	8
53.018	n/a	26509	dot_no5_OFF	25	n/a	n/a	8
54.338	n/a	27169	dot_no2_ON	12	n/a	n/a	8
54.918	n/a	27459	dot_no2_OFF	22	n/a	n/a	8
56.238	n/a	28119	dot_no7_ON	17	n/a	n/a	8
56.818	n/a	28409	dot_no7_OFF	27	1-6-4-2-7-5-3-1-8-7	1-6-4-2-7-3-8-5-2-7	8
107.972	n/a	53986	learningBlock_2	32	n/a	n/a	8
107.98	n/a	53990	dot_no1_ON	11	n/a	n/a	8
108.57	n/a	54285	dot_no1_OFF	21	n/a	n/a	8
109.89	n/a	54945	dot_no6_ON	16	n/a	n/a	8
110.48	n/a	55240	dot_no6_OFF	26	n/a	n/a	8
111.8	n/a	55900	dot_no4_ON	14	n/a	n/a	8
112.39	n/a	56195	dot_no4_OFF	24	n/a	n/a	8
113.712	n/a	56856	dot_no2_ON	12	n/a	n/a	8
114.3	n/a	57150	dot_no2_OFF	22	n/a	n/a	8
115.62	n/a	57810	dot_no7_ON	17	n/a	n/a	8
116.21	n/a	58105	dot_no7_OFF	27	n/a	n/a	8
117.53	n/a	58765	dot_no3_ON	13	n/a	n/a	8
118.11	n/a	59055	dot_no3_OFF	23	n/a	n/a	8
119.432	n/a	59716	dot_no8_ON	18	n/a	n/a	8
120.02	n/a	60010	dot_no8_OFF	28	n/a	n/a	8
121.34	n/a	60670	dot_no5_ON	15	n/a	n/a	8
121.93	n/a	60965	dot_no5_OFF	25	n/a	n/a	8
123.252	n/a	61626	dot_no2_ON	12	n/a	n/a	8
123.83	n/a	61915	dot_no2_OFF	22	n/a	n/a	8
125.15	n/a	62575	dot_no7_ON	17	n/a	n/a	8
125.73	n/a	62865	dot_no7_OFF	27	1-6-3-2-7-3-8-5-4-2	1-6-4-2-7-3-8-5-2-7	8
168.694	n/a	84347	learningBlock_3	33	n/a	n/a	8
168.702	n/a	84351	dot_no1_ON	11	n/a	n/a	8
169.302	n/a	84651	dot_no1_OFF	21	n/a	n/a	8
170.622	n/a	85311	dot_no6_ON	16	n/a	n/a	8
171.202	n/a	85601	dot_no6_OFF	26	n/a	n/a	8
172.522	n/a	86261	dot_no4_ON	14	n/a	n/a	8
173.112	n/a	86556	dot_no4_OFF	24	n/a	n/a	8
174.432	n/a	87216	dot_no2_ON	12	n/a	n/a	8
175.012	n/a	87506	dot_no2_OFF	22	n/a	n/a	8
176.334	n/a	88167	dot_no7_ON	17	n/a	n/a	8
176.922	n/a	88461	dot_no7_OFF	27	n/a	n/a	8
178.242	n/a	89121	dot_no3_ON	13	n/a	n/a	8
178.822	n/a	89411	dot_no3_OFF	23	n/a	n/a	8
180.142	n/a	90071	dot_no8_ON	18	n/a	n/a	8
180.722	n/a	90361	dot_no8_OFF	28	n/a	n/a	8
182.044	n/a	91022	dot_no5_ON	15	n/a	n/a	8
182.622	n/a	91311	dot_no5_OFF	25	n/a	n/a	8
183.944	n/a	91972	dot_no2_ON	12	n/a	n/a	8
184.522	n/a	92261	dot_no2_OFF	22	n/a	n/a	8
185.844	n/a	92922	dot_no7_ON	17	n/a	n/a	8
186.422	n/a	93211	dot_no7_OFF	27	2-6-4-1-3-8-7-5-2-8	1-6-4-2-7-3-8-5-2-7	8
223.194	n/a	111597	learningBlock_4	34	n/a	n/a	8
223.204	n/a	111602	dot_no1_ON	11	n/a	n/a	8
223.794	n/a	111897	dot_no1_OFF	21	n/a	n/a	8
225.114	n/a	112557	dot_no6_ON	16	n/a	n/a	8
225.694	n/a	112847	dot_no6_OFF	26	n/a	n/a	8
227.014	n/a	113507	dot_no4_ON	14	n/a	n/a	8
227.594	n/a	113797	dot_no4_OFF	24	n/a	n/a	8
228.914	n/a	114457	dot_no2_ON	12	n/a	n/a	8
229.504	n/a	114752	dot_no2_OFF	22	n/a	n/a	8
230.824	n/a	115412	dot_no7_ON	17	n/a	n/a	8
231.414	n/a	115707	dot_no7_OFF	27	n/a	n/a	8
232.736	n/a	116368	dot_no3_ON	13	n/a	n/a	8
233.314	n/a	116657	dot_no3_OFF	23	n/a	n/a	8
234.636	n/a	117318	dot_no8_ON	18	n/a	n/a	8
235.224	n/a	117612	dot_no8_OFF	28	n/a	n/a	8
236.546	n/a	118273	dot_no5_ON	15	n/a	n/a	8
237.134	n/a	118567	dot_no5_OFF	25	n/a	n/a	8
238.454	n/a	119227	dot_no2_ON	12	n/a	n/a	8
239.044	n/a	119522	dot_no2_OFF	22	n/a	n/a	8
240.364	n/a	120182	dot_no7_ON	17	n/a	n/a	8
240.944	n/a	120472	dot_no7_OFF	27	1-5-3-2-7-4-8-6-7-4	1-6-4-2-7-3-8-5-2-7	8
263.308	n/a	131654	learningBlock_5	35	n/a	n/a	8
263.316	n/a	131658	dot_no1_ON	11	n/a	n/a	8
263.906	n/a	131953	dot_no1_OFF	21	n/a	n/a	8
265.226	n/a	132613	dot_no6_ON	16	n/a	n/a	8
265.816	n/a	132908	dot_no6_OFF	26	n/a	n/a	8
267.136	n/a	133568	dot_no4_ON	14	n/a	n/a	8
267.716	n/a	133858	dot_no4_OFF	24	n/a	n/a	8
269.036	n/a	134518	dot_no2_ON	12	n/a	n/a	8
269.616	n/a	134808	dot_no2_OFF	22	n/a	n/a	8
270.936	n/a	135468	dot_no7_ON	17	n/a	n/a	8
271.516	n/a	135758	dot_no7_OFF	27	n/a	n/a	8
272.836	n/a	136418	dot_no3_ON	13	n/a	n/a	8
273.426	n/a	136713	dot_no3_OFF	23	n/a	n/a	8
274.746	n/a	137373	dot_no8_ON	18	n/a	n/a	8
275.326	n/a	137663	dot_no8_OFF	28	n/a	n/a	8
276.646	n/a	138323	dot_no5_ON	15	n/a	n/a	8
277.226	n/a	138613	dot_no5_OFF	25	n/a	n/a	8
278.546	n/a	139273	dot_no2_ON	12	n/a	n/a	8
279.126	n/a	139563	dot_no2_OFF	22	n/a	n/a	8
280.446	n/a	140223	dot_no7_ON	17	n/a	n/a	8
281.026	n/a	140513	dot_no7_OFF	27	1-6-3-2-4-5-8-7-4-7	1-6-4-2-7-3-8-5-2-7	8
299.308	n/a	149654	seqLearning_stop	50	n/a	n/a	8
300.379	n/a	150189.5	boundary	boundary	n/a	n/a	8
