onset	duration	sample	value	event_code	user_answer	correct_answer	target_count
0	n/a	0	break cnt	break cnt	n/a	n/a	6
32.09	n/a	16045	seqLearning_start	91	n/a	n/a	6
38.356	n/a	19178	learningBlock_1	31	n/a	n/a	6
38.384	n/a	19192	dot_no1_ON	11	n/a	n/a	6
38.974	n/a	19487	dot_no1_OFF	21	n/a	n/a	6
40.294	n/a	20147	dot_no6_ON	16	n/a	n/a	6
40.874	n/a	20437	dot_no6_OFF	26	n/a	n/a	6
42.194	n/a	21097	dot_no4_ON	14	n/a	n/a	6
42.774	n/a	21387	dot_no4_OFF	24	n/a	n/a	6
44.094	n/a	22047	dot_no2_ON	12	n/a	n/a	6
44.674	n/a	22337	dot_no2_OFF	22	n/a	n/a	6
45.994	n/a	22997	dot_no3_ON	13	n/a	n/a	6
46.574	n/a	23287	dot_no3_OFF	23	n/a	n/a	6
47.894	n/a	23947	dot_no5_ON	15	n/a	n/a	6
48.474	n/a	24237	dot_no5_OFF	25	n/a	n/a	6
49.794	n/a	24897	dot_no2_ON	12	n/a	n/a	6
50.374	n/a	25187	dot_no2_OFF	22	1-6-4-3-2-5-2	1-6-4-2-3-5-2	6
116.322	n/a	58161	learningBlock_2	32	n/a	n/a	6
116.332	n/a	58166	dot_no1_ON	11	n/a	n/a	6
116.912	n/a	58456	dot_no1_OFF	21	n/a	n/a	6
118.232	n/a	59116	dot_no6_ON	16	n/a	n/a	6
118.812	n/a	59406	dot_no6_OFF	26	n/a	n/a	6
120.132	n/a	60066	dot_no4_ON	14	n/a	n/a	6
120.712	n/a	60356	dot_no4_OFF	24	n/a	n/a	6
122.032	n/a	61016	dot_no2_ON	12	n/a	n/a	6
122.612	n/a	61306	dot_no2_OFF	22	n/a	n/a	6
123.932	n/a	61966	dot_no3_ON	13	n/a	n/a	6
124.512	n/a	62256	dot_no3_OFF	23	n/a	n/a	6
125.832	n/a	62916	dot_no5_ON	15	n/a	n/a	6
126.412	n/a	63206	dot_no5_OFF	25	n/a	n/a	6
127.732	n/a	63866	dot_no2_ON	12	n/a	n/a	6
128.312	n/a	64156	dot_no2_OFF	22	1-4-6-3-2-5-2	1-6-4-2-3-5-2	6
176.542	n/a	88271	learningBlock_3	33	n/a	n/a	6
176.55	n/a	88275	dot_no1_ON	11	n/a	n/a	6
177.14	n/a	88570	dot_no1_OFF	21	n/a	n/a	6
178.46	n/a	89230	dot_no6_ON	16	n/a	n/a	6
179.04	n/a	89520	dot_no6_OFF	26	n/a	n/a	6
180.36	n/a	90180	dot_no4_ON	14	n/a	n/a	6
180.94	n/a	90470	dot_no4_OFF	24	n/a	n/a	6
182.26	n/a	91130	dot_no2_ON	12	n/a	n/a	6
182.84	n/a	91420	dot_no2_OFF	22	n/a	n/a	6
184.16	n/a	92080	dot_no3_ON	13	n/a	n/a	6
184.74	n/a	92370	dot_no3_OFF	23	n/a	n/a	6
186.06	n/a	93030	dot_no5_ON	15	n/a	n/a	6
186.64	n/a	93320	dot_no5_OFF	25	n/a	n/a	6
187.96	n/a	93980	dot_no2_ON	12	n/a	n/a	6
188.54	n/a	94270	dot_no2_OFF	22	1-4-6-5-3-2-2	1-6-4-2-3-5-2	6
223.612	n/a	111806	learningBlock_4	34	n/a	n/a	6
223.62	n/a	111810	dot_no1_ON	11	n/a	n/a	6
224.2	n/a	112100	dot_no1_OFF	21	n/a	n/a	6
225.52	n/a	112760	dot_no6_ON	16	n/a	n/a	6
226.1	n/a	113050	dot_no6_OFF	26	n/a	n/a	6
227.42	n/a	113710	dot_no4_ON	14	n/a	n/a	6
228	n/a	114000	dot_no4_OFF	24	n/a	n/a	6
229.32	n/a	114660	dot_no2_ON	12	n/a	n/a	6
229.9	n/a	114950	dot_no2_OFF	22	n/a	n/a	6
231.22	n/a	115610	dot_no3_ON	13	n/a	n/a	6
231.8	n/a	115900	dot_no3_OFF	23	n/a	n/a	6
233.12	n/a	116560	dot_no5_ON	15	n/a	n/a	6
233.7	n/a	116850	dot_no5_OFF	25	n/a	n/a	6
235.02	n/a	117510	dot_no2_ON	12	n/a	n/a	6
235.6	n/a	117800	dot_no2_OFF	22	1-3-4-6-2-5-5	1-6-4-2-3-5-2	6
263.542	n/a	131771	learningBlock_5	35	n/a	n/a	6
263.55	n/a	131775	dot_no1_ON	11	n/a	n/a	6
264.13	n/a	132065	dot_no1_OFF	21	n/a	n/a	6
265.46	n/a	132730	dot_no6_ON	16	n/a	n/a	6
266.04	n/a	133020	dot_no6_OFF	26	n/a	n/a	6
267.36	n/a	133680	dot_no4_ON	14	n/a	n/a	6
267.95	n/a	133975	dot_no4_OFF	24	n/a	n/a	6
269.27	n/a	134635	dot_no2_ON	12	n/a	n/a	6
269.85	n/a	134925	dot_no2_OFF	22	n/a	n/a	6
271.17	n/a	135585	dot_no3_ON	13	n/a	n/a	6
271.75	n/a	135875	dot_no3_OFF	23	n/a	n/a	6
273.07	n/a	136535	dot_no5_ON	15	n/a	n/a	6
273.65	n/a	136825	dot_no5_OFF	25	n/a	n/a	6
274.97	n/a	137485	dot_no2_ON	12	n/a	n/a	6
275.55	n/a	137775	dot_no2_OFF	22	1-6-4-3-5-2-2	1-6-4-2-3-5-2	6
305.442	n/a	152721	seqLearning_stop	50	n/a	n/a	6
313.319	n/a	156659.5	boundary	boundary	n/a	n/a	6
