onset	duration	sample	value	event_code	user_answer	correct_answer	target_count
0	n/a	0	break cnt	break cnt	n/a	n/a	8
33.018	n/a	16509	seqLearning_start	91	n/a	n/a	8
39.332	n/a	19666	learningBlock_1	31	n/a	n/a	8
39.372	n/a	19686	dot_no1_ON	11	n/a	n/a	8
39.958	n/a	19979	dot_no1_OFF	21	n/a	n/a	8
41.278	n/a	20639	dot_no6_ON	16	n/a	n/a	8
41.868	n/a	20934	dot_no6_OFF	26	n/a	n/a	8
43.188	n/a	21594	dot_no4_ON	14	n/a	n/a	8
43.778	n/a	21889	dot_no4_OFF	24	n/a	n/a	8
45.098	n/a	22549	dot_no2_ON	12	n/a	n/a	8
45.688	n/a	22844	dot_no2_OFF	22	n/a	n/a	8
47.008	n/a	23504	dot_no7_ON	17	n/a	n/a	8
47.588	n/a	23794	dot_no7_OFF	27	n/a	n/a	8
48.908	n/a	24454	dot_no3_ON	13	n/a	n/a	8
49.488	n/a	24744	dot_no3_OFF	23	n/a	n/a	8
50.808	n/a	25404	dot_no8_ON	18	n/a	n/a	8
51.388	n/a	25694	dot_no8_OFF	28	n/a	n/a	8
52.708	n/a	26354	dot_no5_ON	15	n/a	n/a	8
53.298	n/a	26649	dot_no5_OFF	25	n/a	n/a	8
54.618	n/a	27309	dot_no2_ON	12	n/a	n/a	8
55.208	n/a	27604	dot_no2_OFF	22	n/a	n/a	8
56.528	n/a	28264	dot_no7_ON	17	n/a	n/a	8
57.108	n/a	28554	dot_no7_OFF	27	1-6-2-4-8-5-7-3-7-7	1-6-4-2-7-3-8-5-2-7	8
108.38	n/a	54190	learningBlock_2	32	n/a	n/a	8
108.39	n/a	54195	dot_no1_ON	11	n/a	n/a	8
108.97	n/a	54485	dot_no1_OFF	21	n/a	n/a	8
110.29	n/a	55145	dot_no6_ON	16	n/a	n/a	8
110.87	n/a	55435	dot_no6_OFF	26	n/a	n/a	8
112.19	n/a	56095	dot_no4_ON	14	n/a	n/a	8
112.77	n/a	56385	dot_no4_OFF	24	n/a	n/a	8
114.09	n/a	57045	dot_no2_ON	12	n/a	n/a	8
114.67	n/a	57335	dot_no2_OFF	22	n/a	n/a	8
115.99	n/a	57995	dot_no7_ON	17	n/a	n/a	8
116.57	n/a	58285	dot_no7_OFF	27	n/a	n/a	8
117.9	n/a	58950	dot_no3_ON	13	n/a	n/a	8
118.48	n/a	59240	dot_no3_OFF	23	n/a	n/a	8
119.8	n/a	59900	dot_no8_ON	18	n/a	n/a	8
120.39	n/a	60195	dot_no8_OFF	28	n/a	n/a	8
121.71	n/a	60855	dot_no5_ON	15	n/a	n/a	8
122.3	n/a	61150	dot_no5_OFF	25	n/a	n/a	8
123.62	n/a	61810	dot_no2_ON	12	n/a	n/a	8
124.2	n/a	62100	dot_no2_OFF	22	n/a	n/a	8
125.52	n/a	62760	dot_no7_ON	17	n/a	n/a	8
126.11	n/a	63055	dot_no7_OFF	27	1-6-2-7-3-5-2-2-2-2	1-6-4-2-7-3-8-5-2-7	8
153.682	n/a	76841	learningBlock_3	33	n/a	n/a	8
153.692	n/a	76846	dot_no1_ON	11	n/a	n/a	8
154.27	n/a	77135	dot_no1_OFF	21	n/a	n/a	8
155.59	n/a	77795	dot_no6_ON	16	n/a	n/a	8
156.172	n/a	78086	dot_no6_OFF	26	n/a	n/a	8
157.492	n/a	78746	dot_no4_ON	14	n/a	n/a	8
158.072	n/a	79036	dot_no4_OFF	24	n/a	n/a	8
159.392	n/a	79696	dot_no2_ON	12	n/a	n/a	8
159.972	n/a	79986	dot_no2_OFF	22	n/a	n/a	8
161.292	n/a	80646	dot_no7_ON	17	n/a	n/a	8
161.872	n/a	80936	dot_no7_OFF	27	n/a	n/a	8
163.192	n/a	81596	dot_no3_ON	13	n/a	n/a	8
163.782	n/a	81891	dot_no3_OFF	23	n/a	n/a	8
165.102	n/a	82551	dot_no8_ON	18	n/a	n/a	8
165.682	n/a	82841	dot_no8_OFF	28	n/a	n/a	8
167.002	n/a	83501	dot_no5_ON	15	n/a	n/a	8
167.582	n/a	83791	dot_no5_OFF	25	n/a	n/a	8
168.902	n/a	84451	dot_no2_ON	12	n/a	n/a	8
169.482	n/a	84741	dot_no2_OFF	22	n/a	n/a	8
170.802	n/a	85401	dot_no7_ON	17	n/a	n/a	8
171.392	n/a	85696	dot_no7_OFF	27	1-1-6-8-3-7-5-5-5-5	1-6-4-2-7-3-8-5-2-7	8
208.234	n/a	104117	learningBlock_4	34	n/a	n/a	8
208.244	n/a	104122	dot_no1_ON	11	n/a	n/a	8
208.832	n/a	104416	dot_no1_OFF	21	n/a	n/a	8
210.154	n/a	105077	dot_no6_ON	16	n/a	n/a	8
210.742	n/a	105371	dot_no6_OFF	26	n/a	n/a	8
212.064	n/a	106032	dot_no4_ON	14	n/a	n/a	8
212.652	n/a	106326	dot_no4_OFF	24	n/a	n/a	8
213.974	n/a	106987	dot_no2_ON	12	n/a	n/a	8
214.554	n/a	107277	dot_no2_OFF	22	n/a	n/a	8
215.874	n/a	107937	dot_no7_ON	17	n/a	n/a	8
216.464	n/a	108232	dot_no7_OFF	27	n/a	n/a	8
217.784	n/a	108892	dot_no3_ON	13	n/a	n/a	8
218.374	n/a	109187	dot_no3_OFF	23	n/a	n/a	8
219.694	n/a	109847	dot_no8_ON	18	n/a	n/a	8
220.284	n/a	110142	dot_no8_OFF	28	n/a	n/a	8
221.604	n/a	110802	dot_no5_ON	15	n/a	n/a	8
222.194	n/a	111097	dot_no5_OFF	25	n/a	n/a	8
223.514	n/a	111757	dot_no2_ON	12	n/a	n/a	8
224.104	n/a	112052	dot_no2_OFF	22	n/a	n/a	8
225.424	n/a	112712	dot_no7_ON	17	n/a	n/a	8
226.004	n/a	113002	dot_no7_OFF	27	1-6-4-7-3-8-2-5-5-5	1-6-4-2-7-3-8-5-2-7	8
258.224	n/a	129112	learningBlock_5	35	n/a	n/a	8
258.234	n/a	129117	dot_no1_ON	11	n/a	n/a	8
258.814	n/a	129407	dot_no1_OFF	21	n/a	n/a	8
260.134	n/a	130067	dot_no6_ON	16	n/a	n/a	8
260.714	n/a	130357	dot_no6_OFF	26	n/a	n/a	8
262.036	n/a	131018	dot_no4_ON	14	n/a	n/a	8
262.624	n/a	131312	dot_no4_OFF	24	n/a	n/a	8
263.946	n/a	131973	dot_no2_ON	12	n/a	n/a	8
264.534	n/a	132267	dot_no2_OFF	22	n/a	n/a	8
265.856	n/a	132928	dot_no7_ON	17	n/a	n/a	8
266.444	n/a	133222	dot_no7_OFF	27	n/a	n/a	8
267.766	n/a	133883	dot_no3_ON	13	n/a	n/a	8
268.344	n/a	134172	dot_no3_OFF	23	n/a	n/a	8
269.666	n/a	134833	dot_no8_ON	18	n/a	n/a	8
270.244	n/a	135122	dot_no8_OFF	28	n/a	n/a	8
271.566	n/a	135783	dot_no5_ON	15	n/a	n/a	8
272.154	n/a	136077	dot_no5_OFF	25	n/a	n/a	8
273.476	n/a	136738	dot_no2_ON	12	n/a	n/a	8
274.056	n/a	137028	dot_no2_OFF	22	n/a	n/a	8
275.376	n/a	137688	dot_no7_ON	17	n/a	n/a	8
275.956	n/a	137978	dot_no7_OFF	27	1-6-4-8-8-2-2-2-3-7	1-6-4-2-7-3-8-5-2-7	8
294.608	n/a	147304	seqLearning_stop	50	n/a	n/a	8
295.477	n/a	147738.5	boundary	boundary	n/a	n/a	8
