onset	duration	sample	value	event_code	user_answer	correct_answer	target_count
0	n/a	0	break cnt	break cnt	n/a	n/a	6
28.944	n/a	14472	seqLearning_start	91	n/a	n/a	6
35.216	n/a	17608	learningBlock_1	31	n/a	n/a	6
35.25	n/a	17625	dot_no1_ON	11	n/a	n/a	6
35.84	n/a	17920	dot_no1_OFF	21	n/a	n/a	6
37.16	n/a	18580	dot_no6_ON	16	n/a	n/a	6
37.75	n/a	18875	dot_no6_OFF	26	n/a	n/a	6
39.07	n/a	19535	dot_no4_ON	14	n/a	n/a	6
39.65	n/a	19825	dot_no4_OFF	24	n/a	n/a	6
40.97	n/a	20485	dot_no2_ON	12	n/a	n/a	6
41.56	n/a	20780	dot_no2_OFF	22	n/a	n/a	6
42.88	n/a	21440	dot_no3_ON	13	n/a	n/a	6
43.46	n/a	21730	dot_no3_OFF	23	n/a	n/a	6
44.78	n/a	22390	dot_no5_ON	15	n/a	n/a	6
45.37	n/a	22685	dot_no5_OFF	25	n/a	n/a	6
46.69	n/a	23345	dot_no2_ON	12	n/a	n/a	6
47.27	n/a	23635	dot_no2_OFF	22	1-4-5-3-6-4-2	1-6-4-2-3-5-2	6
72.662	n/a	36331	learningBlock_2	32	n/a	n/a	6
72.67	n/a	36335	dot_no1_ON	11	n/a	n/a	6
73.26	n/a	36630	dot_no1_OFF	21	n/a	n/a	6
74.58	n/a	37290	dot_no6_ON	16	n/a	n/a	6
75.17	n/a	37585	dot_no6_OFF	26	n/a	n/a	6
76.49	n/a	38245	dot_no4_ON	14	n/a	n/a	6
77.07	n/a	38535	dot_no4_OFF	24	n/a	n/a	6
78.39	n/a	39195	dot_no2_ON	12	n/a	n/a	6
78.97	n/a	39485	dot_no2_OFF	22	n/a	n/a	6
80.292	n/a	40146	dot_no3_ON	13	n/a	n/a	6
80.88	n/a	40440	dot_no3_OFF	23	n/a	n/a	6
82.202	n/a	41101	dot_no5_ON	15	n/a	n/a	6
82.79	n/a	41395	dot_no5_OFF	25	n/a	n/a	6
84.112	n/a	42056	dot_no2_ON	12	n/a	n/a	6
84.7	n/a	42350	dot_no2_OFF	22	1-4-5-2-6-3-2	1-6-4-2-3-5-2	6
108.064	n/a	54032	learningBlock_3	33	n/a	n/a	6
108.072	n/a	54036	dot_no1_ON	11	n/a	n/a	6
108.652	n/a	54326	dot_no1_OFF	21	n/a	n/a	6
109.972	n/a	54986	dot_no6_ON	16	n/a	n/a	6
110.562	n/a	55281	dot_no6_OFF	26	n/a	n/a	6
111.882	n/a	55941	dot_no4_ON	14	n/a	n/a	6
112.472	n/a	56236	dot_no4_OFF	24	n/a	n/a	6
113.792	n/a	56896	dot_no2_ON	12	n/a	n/a	6
114.372	n/a	57186	dot_no2_OFF	22	n/a	n/a	6
115.692	n/a	57846	dot_no3_ON	13	n/a	n/a	6
116.272	n/a	58136	dot_no3_OFF	23	n/a	n/a	6
117.592	n/a	58796	dot_no5_ON	15	n/a	n/a	6
118.172	n/a	59086	dot_no5_OFF	25	n/a	n/a	6
119.492	n/a	59746	dot_no2_ON	12	n/a	n/a	6
120.072	n/a	60036	dot_no2_OFF	22	1-4-5-3-6-2-4	1-6-4-2-3-5-2	6
139.894	n/a	69947	learningBlock_4	34	n/a	n/a	6
139.904	n/a	69952	dot_no1_ON	11	n/a	n/a	6
140.492	n/a	70246	dot_no1_OFF	21	n/a	n/a	6
141.814	n/a	70907	dot_no6_ON	16	n/a	n/a	6
142.392	n/a	71196	dot_no6_OFF	26	n/a	n/a	6
143.714	n/a	71857	dot_no4_ON	14	n/a	n/a	6
144.302	n/a	72151	dot_no4_OFF	24	n/a	n/a	6
145.622	n/a	72811	dot_no2_ON	12	n/a	n/a	6
146.202	n/a	73101	dot_no2_OFF	22	n/a	n/a	6
147.524	n/a	73762	dot_no3_ON	13	n/a	n/a	6
148.102	n/a	74051	dot_no3_OFF	23	n/a	n/a	6
149.422	n/a	74711	dot_no5_ON	15	n/a	n/a	6
150.002	n/a	75001	dot_no5_OFF	25	n/a	n/a	6
151.322	n/a	75661	dot_no2_ON	12	n/a	n/a	6
151.902	n/a	75951	dot_no2_OFF	22	6-5-3-2-4-1-6	1-6-4-2-3-5-2	6
177.806	n/a	88903	learningBlock_5	35	n/a	n/a	6
177.814	n/a	88907	dot_no1_ON	11	n/a	n/a	6
178.394	n/a	89197	dot_no1_OFF	21	n/a	n/a	6
179.714	n/a	89857	dot_no6_ON	16	n/a	n/a	6
180.294	n/a	90147	dot_no6_OFF	26	n/a	n/a	6
181.614	n/a	90807	dot_no4_ON	14	n/a	n/a	6
182.194	n/a	91097	dot_no4_OFF	24	n/a	n/a	6
183.514	n/a	91757	dot_no2_ON	12	n/a	n/a	6
184.094	n/a	92047	dot_no2_OFF	22	n/a	n/a	6
185.414	n/a	92707	dot_no3_ON	13	n/a	n/a	6
186.004	n/a	93002	dot_no3_OFF	23	n/a	n/a	6
187.324	n/a	93662	dot_no5_ON	15	n/a	n/a	6
187.904	n/a	93952	dot_no5_OFF	25	n/a	n/a	6
189.224	n/a	94612	dot_no2_ON	12	n/a	n/a	6
189.814	n/a	94907	dot_no2_OFF	22	1-4-3-5-2-6-6	1-6-4-2-3-5-2	6
216.806	n/a	108403	seqLearning_stop	50	n/a	n/a	6
217.681	n/a	108840.5	boundary	boundary	n/a	n/a	6
