onset	duration	sample	value	event_code	user_answer	correct_answer	target_count
0	n/a	0	break cnt	break cnt	n/a	n/a	8
40.592	n/a	20296	seqLearning_start	91	n/a	n/a	8
46.902	n/a	23451	learningBlock_1	31	n/a	n/a	8
46.936	n/a	23468	dot_no1_ON	11	n/a	n/a	8
47.524	n/a	23762	dot_no1_OFF	21	n/a	n/a	8
48.844	n/a	24422	dot_no6_ON	16	n/a	n/a	8
49.424	n/a	24712	dot_no6_OFF	26	n/a	n/a	8
50.744	n/a	25372	dot_no4_ON	14	n/a	n/a	8
51.324	n/a	25662	dot_no4_OFF	24	n/a	n/a	8
52.644	n/a	26322	dot_no2_ON	12	n/a	n/a	8
53.224	n/a	26612	dot_no2_OFF	22	n/a	n/a	8
54.544	n/a	27272	dot_no7_ON	17	n/a	n/a	8
55.134	n/a	27567	dot_no7_OFF	27	n/a	n/a	8
56.454	n/a	28227	dot_no3_ON	13	n/a	n/a	8
57.044	n/a	28522	dot_no3_OFF	23	n/a	n/a	8
58.364	n/a	29182	dot_no8_ON	18	n/a	n/a	8
58.954	n/a	29477	dot_no8_OFF	28	n/a	n/a	8
60.274	n/a	30137	dot_no5_ON	15	n/a	n/a	8
60.864	n/a	30432	dot_no5_OFF	25	n/a	n/a	8
62.184	n/a	31092	dot_no2_ON	12	n/a	n/a	8
62.764	n/a	31382	dot_no2_OFF	22	n/a	n/a	8
64.084	n/a	32042	dot_no7_ON	17	n/a	n/a	8
64.674	n/a	32337	dot_no7_OFF	27	8-5-2-7-4-3-6-1-2-3	1-6-4-2-7-3-8-5-2-7	8
95.006	n/a	47503	learningBlock_2	32	n/a	n/a	8
95.014	n/a	47507	dot_no1_ON	11	n/a	n/a	8
95.604	n/a	47802	dot_no1_OFF	21	n/a	n/a	8
96.926	n/a	48463	dot_no6_ON	16	n/a	n/a	8
97.514	n/a	48757	dot_no6_OFF	26	n/a	n/a	8
98.836	n/a	49418	dot_no4_ON	14	n/a	n/a	8
99.424	n/a	49712	dot_no4_OFF	24	n/a	n/a	8
100.746	n/a	50373	dot_no2_ON	12	n/a	n/a	8
101.334	n/a	50667	dot_no2_OFF	22	n/a	n/a	8
102.656	n/a	51328	dot_no7_ON	17	n/a	n/a	8
103.244	n/a	51622	dot_no7_OFF	27	n/a	n/a	8
104.566	n/a	52283	dot_no3_ON	13	n/a	n/a	8
105.144	n/a	52572	dot_no3_OFF	23	n/a	n/a	8
106.466	n/a	53233	dot_no8_ON	18	n/a	n/a	8
107.056	n/a	53528	dot_no8_OFF	28	n/a	n/a	8
108.376	n/a	54188	dot_no5_ON	15	n/a	n/a	8
108.956	n/a	54478	dot_no5_OFF	25	n/a	n/a	8
110.276	n/a	55138	dot_no2_ON	12	n/a	n/a	8
110.856	n/a	55428	dot_no2_OFF	22	n/a	n/a	8
112.176	n/a	56088	dot_no7_ON	17	n/a	n/a	8
112.756	n/a	56378	dot_no7_OFF	27	6-1-4-8-2-7-5-3-7-1	1-6-4-2-7-3-8-5-2-7	8
137.388	n/a	68694	learningBlock_3	33	n/a	n/a	8
137.396	n/a	68698	dot_no1_ON	11	n/a	n/a	8
137.976	n/a	68988	dot_no1_OFF	21	n/a	n/a	8
139.296	n/a	69648	dot_no6_ON	16	n/a	n/a	8
139.876	n/a	69938	dot_no6_OFF	26	n/a	n/a	8
141.196	n/a	70598	dot_no4_ON	14	n/a	n/a	8
141.776	n/a	70888	dot_no4_OFF	24	n/a	n/a	8
143.096	n/a	71548	dot_no2_ON	12	n/a	n/a	8
143.676	n/a	71838	dot_no2_OFF	22	n/a	n/a	8
144.996	n/a	72498	dot_no7_ON	17	n/a	n/a	8
145.576	n/a	72788	dot_no7_OFF	27	n/a	n/a	8
146.896	n/a	73448	dot_no3_ON	13	n/a	n/a	8
147.476	n/a	73738	dot_no3_OFF	23	n/a	n/a	8
148.798	n/a	74399	dot_no8_ON	18	n/a	n/a	8
149.376	n/a	74688	dot_no8_OFF	28	n/a	n/a	8
150.698	n/a	75349	dot_no5_ON	15	n/a	n/a	8
151.276	n/a	75638	dot_no5_OFF	25	n/a	n/a	8
152.596	n/a	76298	dot_no2_ON	12	n/a	n/a	8
153.176	n/a	76588	dot_no2_OFF	22	n/a	n/a	8
154.498	n/a	77249	dot_no7_ON	17	n/a	n/a	8
155.076	n/a	77538	dot_no7_OFF	27	1-6-4-7-3-5-2-8-7-5	1-6-4-2-7-3-8-5-2-7	8
177.62	n/a	88810	learningBlock_4	34	n/a	n/a	8
177.628	n/a	88814	dot_no1_ON	11	n/a	n/a	8
178.208	n/a	89104	dot_no1_OFF	21	n/a	n/a	8
179.528	n/a	89764	dot_no6_ON	16	n/a	n/a	8
180.118	n/a	90059	dot_no6_OFF	26	n/a	n/a	8
181.438	n/a	90719	dot_no4_ON	14	n/a	n/a	8
182.028	n/a	91014	dot_no4_OFF	24	n/a	n/a	8
183.348	n/a	91674	dot_no2_ON	12	n/a	n/a	8
183.928	n/a	91964	dot_no2_OFF	22	n/a	n/a	8
185.248	n/a	92624	dot_no7_ON	17	n/a	n/a	8
185.838	n/a	92919	dot_no7_OFF	27	n/a	n/a	8
187.158	n/a	93579	dot_no3_ON	13	n/a	n/a	8
187.748	n/a	93874	dot_no3_OFF	23	n/a	n/a	8
189.078	n/a	94539	dot_no8_ON	18	n/a	n/a	8
189.668	n/a	94834	dot_no8_OFF	28	n/a	n/a	8
190.988	n/a	95494	dot_no5_ON	15	n/a	n/a	8
191.568	n/a	95784	dot_no5_OFF	25	n/a	n/a	8
192.888	n/a	96444	dot_no2_ON	12	n/a	n/a	8
193.478	n/a	96739	dot_no2_OFF	22	n/a	n/a	8
194.798	n/a	97399	dot_no7_ON	17	n/a	n/a	8
195.388	n/a	97694	dot_no7_OFF	27	1-6-4-7-5-8-3-8-2-8	1-6-4-2-7-3-8-5-2-7	8
220.84	n/a	110420	learningBlock_5	35	n/a	n/a	8
220.85	n/a	110425	dot_no1_ON	11	n/a	n/a	8
221.428	n/a	110714	dot_no1_OFF	21	n/a	n/a	8
222.75	n/a	111375	dot_no6_ON	16	n/a	n/a	8
223.34	n/a	111670	dot_no6_OFF	26	n/a	n/a	8
224.658	n/a	112329	dot_no4_ON	14	n/a	n/a	8
225.238	n/a	112619	dot_no4_OFF	24	n/a	n/a	8
226.56	n/a	113280	dot_no2_ON	12	n/a	n/a	8
227.14	n/a	113570	dot_no2_OFF	22	n/a	n/a	8
228.46	n/a	114230	dot_no7_ON	17	n/a	n/a	8
229.04	n/a	114520	dot_no7_OFF	27	n/a	n/a	8
230.36	n/a	115180	dot_no3_ON	13	n/a	n/a	8
230.94	n/a	115470	dot_no3_OFF	23	n/a	n/a	8
232.26	n/a	116130	dot_no8_ON	18	n/a	n/a	8
232.84	n/a	116420	dot_no8_OFF	28	n/a	n/a	8
234.16	n/a	117080	dot_no5_ON	15	n/a	n/a	8
234.74	n/a	117370	dot_no5_OFF	25	n/a	n/a	8
236.06	n/a	118030	dot_no2_ON	12	n/a	n/a	8
236.65	n/a	118325	dot_no2_OFF	22	n/a	n/a	8
237.97	n/a	118985	dot_no7_ON	17	n/a	n/a	8
238.56	n/a	119280	dot_no7_OFF	27	1-6-5-2-7-3-4-8-7-3	1-6-4-2-7-3-8-5-2-7	8
256.852	n/a	128426	seqLearning_stop	50	n/a	n/a	8
257.781	n/a	128890.5	boundary	boundary	n/a	n/a	8
