onset	duration	sample	value	event_code	user_answer	correct_answer	target_count
0	n/a	0	break cnt	break cnt	n/a	n/a	6
68.072	n/a	34036	seqLearning_start	91	n/a	n/a	6
74.348	n/a	37174	learningBlock_1	31	n/a	n/a	6
74.364	n/a	37182	dot_no1_ON	11	n/a	n/a	6
74.952	n/a	37476	dot_no1_OFF	21	n/a	n/a	6
76.272	n/a	38136	dot_no6_ON	16	n/a	n/a	6
76.862	n/a	38431	dot_no6_OFF	26	n/a	n/a	6
78.182	n/a	39091	dot_no4_ON	14	n/a	n/a	6
78.772	n/a	39386	dot_no4_OFF	24	n/a	n/a	6
80.092	n/a	40046	dot_no2_ON	12	n/a	n/a	6
80.672	n/a	40336	dot_no2_OFF	22	n/a	n/a	6
81.992	n/a	40996	dot_no3_ON	13	n/a	n/a	6
82.572	n/a	41286	dot_no3_OFF	23	n/a	n/a	6
83.892	n/a	41946	dot_no5_ON	15	n/a	n/a	6
84.472	n/a	42236	dot_no5_OFF	25	n/a	n/a	6
85.792	n/a	42896	dot_no2_ON	12	n/a	n/a	6
86.372	n/a	43186	dot_no2_OFF	22	1-6-4-2-5-3-5	1-6-4-2-3-5-2	6
124.796	n/a	62398	learningBlock_2	32	n/a	n/a	6
124.804	n/a	62402	dot_no1_ON	11	n/a	n/a	6
125.384	n/a	62692	dot_no1_OFF	21	n/a	n/a	6
126.714	n/a	63357	dot_no6_ON	16	n/a	n/a	6
127.304	n/a	63652	dot_no6_OFF	26	n/a	n/a	6
128.624	n/a	64312	dot_no4_ON	14	n/a	n/a	6
129.214	n/a	64607	dot_no4_OFF	24	n/a	n/a	6
130.534	n/a	65267	dot_no2_ON	12	n/a	n/a	6
131.124	n/a	65562	dot_no2_OFF	22	n/a	n/a	6
132.444	n/a	66222	dot_no3_ON	13	n/a	n/a	6
133.034	n/a	66517	dot_no3_OFF	23	n/a	n/a	6
134.354	n/a	67177	dot_no5_ON	15	n/a	n/a	6
134.944	n/a	67472	dot_no5_OFF	25	n/a	n/a	6
136.264	n/a	68132	dot_no2_ON	12	n/a	n/a	6
136.844	n/a	68422	dot_no2_OFF	22	1-6-4-2-5-3-5	1-6-4-2-3-5-2	6
158.476	n/a	79238	learningBlock_3	33	n/a	n/a	6
158.486	n/a	79243	dot_no1_ON	11	n/a	n/a	6
159.064	n/a	79532	dot_no1_OFF	21	n/a	n/a	6
160.386	n/a	80193	dot_no6_ON	16	n/a	n/a	6
160.966	n/a	80483	dot_no6_OFF	26	n/a	n/a	6
162.284	n/a	81142	dot_no4_ON	14	n/a	n/a	6
162.874	n/a	81437	dot_no4_OFF	24	n/a	n/a	6
164.196	n/a	82098	dot_no2_ON	12	n/a	n/a	6
164.864	n/a	82432	dot_no2_OFF	22	n/a	n/a	6
166.186	n/a	83093	dot_no3_ON	13	n/a	n/a	6
166.766	n/a	83383	dot_no3_OFF	23	n/a	n/a	6
168.086	n/a	84043	dot_no5_ON	15	n/a	n/a	6
168.666	n/a	84333	dot_no5_OFF	25	n/a	n/a	6
169.986	n/a	84993	dot_no2_ON	12	n/a	n/a	6
170.566	n/a	85283	dot_no2_OFF	22	1-6-4-2-3-5-2	1-6-4-2-3-5-2	6
195.288	n/a	97644	learningBlock_4	34	n/a	n/a	6
195.296	n/a	97648	dot_no1_ON	11	n/a	n/a	6
195.886	n/a	97943	dot_no1_OFF	21	n/a	n/a	6
197.206	n/a	98603	dot_no6_ON	16	n/a	n/a	6
197.786	n/a	98893	dot_no6_OFF	26	n/a	n/a	6
199.106	n/a	99553	dot_no4_ON	14	n/a	n/a	6
199.686	n/a	99843	dot_no4_OFF	24	n/a	n/a	6
201.006	n/a	100503	dot_no2_ON	12	n/a	n/a	6
201.596	n/a	100798	dot_no2_OFF	22	n/a	n/a	6
202.916	n/a	101458	dot_no3_ON	13	n/a	n/a	6
203.496	n/a	101748	dot_no3_OFF	23	n/a	n/a	6
204.816	n/a	102408	dot_no5_ON	15	n/a	n/a	6
205.396	n/a	102698	dot_no5_OFF	25	n/a	n/a	6
206.718	n/a	103359	dot_no2_ON	12	n/a	n/a	6
207.306	n/a	103653	dot_no2_OFF	22	1-6-2-5-3-4-5	1-6-4-2-3-5-2	6
260.82	n/a	130410	learningBlock_5	35	n/a	n/a	6
260.828	n/a	130414	dot_no1_ON	11	n/a	n/a	6
261.408	n/a	130704	dot_no1_OFF	21	n/a	n/a	6
262.728	n/a	131364	dot_no6_ON	16	n/a	n/a	6
263.318	n/a	131659	dot_no6_OFF	26	n/a	n/a	6
264.638	n/a	132319	dot_no4_ON	14	n/a	n/a	6
265.218	n/a	132609	dot_no4_OFF	24	n/a	n/a	6
266.538	n/a	133269	dot_no2_ON	12	n/a	n/a	6
267.118	n/a	133559	dot_no2_OFF	22	n/a	n/a	6
268.438	n/a	134219	dot_no3_ON	13	n/a	n/a	6
269.018	n/a	134509	dot_no3_OFF	23	n/a	n/a	6
270.338	n/a	135169	dot_no5_ON	15	n/a	n/a	6
270.928	n/a	135464	dot_no5_OFF	25	n/a	n/a	6
272.248	n/a	136124	dot_no2_ON	12	n/a	n/a	6
272.828	n/a	136414	dot_no2_OFF	22	6-1-4-3-5-2-5	1-6-4-2-3-5-2	6
292.502	n/a	146251	seqLearning_stop	50	n/a	n/a	6
293.427	n/a	146713.5	boundary	boundary	n/a	n/a	6
