onset	duration	sample	value	event_code	user_answer	correct_answer	target_count
0	n/a	0	break cnt	break cnt	n/a	n/a	8
82.632	n/a	41316	seqLearning_start	91	n/a	n/a	8
88.926	n/a	44463	learningBlock_1	31	n/a	n/a	8
88.964	n/a	44482	dot_no1_ON	11	n/a	n/a	8
89.56	n/a	44780	dot_no1_OFF	21	n/a	n/a	8
90.88	n/a	45440	dot_no6_ON	16	n/a	n/a	8
91.47	n/a	45735	dot_no6_OFF	26	n/a	n/a	8
92.79	n/a	46395	dot_no4_ON	14	n/a	n/a	8
93.38	n/a	46690	dot_no4_OFF	24	n/a	n/a	8
94.7	n/a	47350	dot_no2_ON	12	n/a	n/a	8
95.29	n/a	47645	dot_no2_OFF	22	n/a	n/a	8
96.61	n/a	48305	dot_no7_ON	17	n/a	n/a	8
97.19	n/a	48595	dot_no7_OFF	27	n/a	n/a	8
98.51	n/a	49255	dot_no3_ON	13	n/a	n/a	8
99.09	n/a	49545	dot_no3_OFF	23	n/a	n/a	8
100.41	n/a	50205	dot_no8_ON	18	n/a	n/a	8
101	n/a	50500	dot_no8_OFF	28	n/a	n/a	8
102.332	n/a	51166	dot_no5_ON	15	n/a	n/a	8
102.92	n/a	51460	dot_no5_OFF	25	n/a	n/a	8
104.24	n/a	52120	dot_no2_ON	12	n/a	n/a	8
104.82	n/a	52410	dot_no2_OFF	22	n/a	n/a	8
106.14	n/a	53070	dot_no7_ON	17	n/a	n/a	8
106.72	n/a	53360	dot_no7_OFF	27	1-6-2-4-7-8-5-3-2-2	1-6-4-2-7-3-8-5-2-7	8
184.676	n/a	92338	learningBlock_2	32	n/a	n/a	8
184.684	n/a	92342	dot_no1_ON	11	n/a	n/a	8
185.274	n/a	92637	dot_no1_OFF	21	n/a	n/a	8
186.594	n/a	93297	dot_no6_ON	16	n/a	n/a	8
187.184	n/a	93592	dot_no6_OFF	26	n/a	n/a	8
188.504	n/a	94252	dot_no4_ON	14	n/a	n/a	8
189.094	n/a	94547	dot_no4_OFF	24	n/a	n/a	8
190.414	n/a	95207	dot_no2_ON	12	n/a	n/a	8
190.994	n/a	95497	dot_no2_OFF	22	n/a	n/a	8
192.314	n/a	96157	dot_no7_ON	17	n/a	n/a	8
192.894	n/a	96447	dot_no7_OFF	27	n/a	n/a	8
194.214	n/a	97107	dot_no3_ON	13	n/a	n/a	8
194.794	n/a	97397	dot_no3_OFF	23	n/a	n/a	8
196.114	n/a	98057	dot_no8_ON	18	n/a	n/a	8
196.694	n/a	98347	dot_no8_OFF	28	n/a	n/a	8
198.014	n/a	99007	dot_no5_ON	15	n/a	n/a	8
198.594	n/a	99297	dot_no5_OFF	25	n/a	n/a	8
199.914	n/a	99957	dot_no2_ON	12	n/a	n/a	8
200.494	n/a	100247	dot_no2_OFF	22	n/a	n/a	8
201.814	n/a	100907	dot_no7_ON	17	n/a	n/a	8
202.404	n/a	101202	dot_no7_OFF	27	1-6-4-2-5-3-8-7-2-2	1-6-4-2-7-3-8-5-2-7	8
423.542	n/a	211771	learningBlock_3	33	n/a	n/a	8
423.552	n/a	211776	dot_no1_ON	11	n/a	n/a	8
424.132	n/a	212066	dot_no1_OFF	21	n/a	n/a	8
425.452	n/a	212726	dot_no6_ON	16	n/a	n/a	8
426.032	n/a	213016	dot_no6_OFF	26	n/a	n/a	8
427.352	n/a	213676	dot_no4_ON	14	n/a	n/a	8
427.932	n/a	213966	dot_no4_OFF	24	n/a	n/a	8
429.252	n/a	214626	dot_no2_ON	12	n/a	n/a	8
429.832	n/a	214916	dot_no2_OFF	22	n/a	n/a	8
431.152	n/a	215576	dot_no7_ON	17	n/a	n/a	8
431.732	n/a	215866	dot_no7_OFF	27	n/a	n/a	8
433.052	n/a	216526	dot_no3_ON	13	n/a	n/a	8
433.642	n/a	216821	dot_no3_OFF	23	n/a	n/a	8
434.962	n/a	217481	dot_no8_ON	18	n/a	n/a	8
435.552	n/a	217776	dot_no8_OFF	28	n/a	n/a	8
436.872	n/a	218436	dot_no5_ON	15	n/a	n/a	8
437.452	n/a	218726	dot_no5_OFF	25	n/a	n/a	8
438.772	n/a	219386	dot_no2_ON	12	n/a	n/a	8
439.352	n/a	219676	dot_no2_OFF	22	n/a	n/a	8
440.672	n/a	220336	dot_no7_ON	17	n/a	n/a	8
441.262	n/a	220631	dot_no7_OFF	27	2-1-8-7-5-3-6-4-8-1	1-6-4-2-7-3-8-5-2-7	8
474.594	n/a	237297	learningBlock_4	34	n/a	n/a	8
474.604	n/a	237302	dot_no1_ON	11	n/a	n/a	8
475.194	n/a	237597	dot_no1_OFF	21	n/a	n/a	8
476.514	n/a	238257	dot_no6_ON	16	n/a	n/a	8
477.104	n/a	238552	dot_no6_OFF	26	n/a	n/a	8
478.424	n/a	239212	dot_no4_ON	14	n/a	n/a	8
479.014	n/a	239507	dot_no4_OFF	24	n/a	n/a	8
480.334	n/a	240167	dot_no2_ON	12	n/a	n/a	8
480.924	n/a	240462	dot_no2_OFF	22	n/a	n/a	8
482.244	n/a	241122	dot_no7_ON	17	n/a	n/a	8
482.834	n/a	241417	dot_no7_OFF	27	n/a	n/a	8
484.154	n/a	242077	dot_no3_ON	13	n/a	n/a	8
484.734	n/a	242367	dot_no3_OFF	23	n/a	n/a	8
486.054	n/a	243027	dot_no8_ON	18	n/a	n/a	8
486.644	n/a	243322	dot_no8_OFF	28	n/a	n/a	8
487.964	n/a	243982	dot_no5_ON	15	n/a	n/a	8
488.544	n/a	244272	dot_no5_OFF	25	n/a	n/a	8
489.864	n/a	244932	dot_no2_ON	12	n/a	n/a	8
490.444	n/a	245222	dot_no2_OFF	22	n/a	n/a	8
491.764	n/a	245882	dot_no7_ON	17	n/a	n/a	8
492.354	n/a	246177	dot_no7_OFF	27	4-1-7-2-6-5-8-3-1-7	1-6-4-2-7-3-8-5-2-7	8
519.104	n/a	259552	learningBlock_5	35	n/a	n/a	8
519.114	n/a	259557	dot_no1_ON	11	n/a	n/a	8
519.694	n/a	259847	dot_no1_OFF	21	n/a	n/a	8
521.016	n/a	260508	dot_no6_ON	16	n/a	n/a	8
521.604	n/a	260802	dot_no6_OFF	26	n/a	n/a	8
522.926	n/a	261463	dot_no4_ON	14	n/a	n/a	8
523.514	n/a	261757	dot_no4_OFF	24	n/a	n/a	8
524.836	n/a	262418	dot_no2_ON	12	n/a	n/a	8
525.414	n/a	262707	dot_no2_OFF	22	n/a	n/a	8
526.736	n/a	263368	dot_no7_ON	17	n/a	n/a	8
527.314	n/a	263657	dot_no7_OFF	27	n/a	n/a	8
528.636	n/a	264318	dot_no3_ON	13	n/a	n/a	8
529.216	n/a	264608	dot_no3_OFF	23	n/a	n/a	8
530.536	n/a	265268	dot_no8_ON	18	n/a	n/a	8
531.124	n/a	265562	dot_no8_OFF	28	n/a	n/a	8
532.446	n/a	266223	dot_no5_ON	15	n/a	n/a	8
533.024	n/a	266512	dot_no5_OFF	25	n/a	n/a	8
534.346	n/a	267173	dot_no2_ON	12	n/a	n/a	8
534.926	n/a	267463	dot_no2_OFF	22	n/a	n/a	8
536.246	n/a	268123	dot_no7_ON	17	n/a	n/a	8
536.836	n/a	268418	dot_no7_OFF	27	6-2-7-5-4-7-8-1-5-3	1-6-4-2-7-3-8-5-2-7	8
558.638	n/a	279319	seqLearning_stop	50	n/a	n/a	8
559.413	n/a	279706.5	boundary	boundary	n/a	n/a	8
